{
  "resourceType": "Bundle",
  "id": "comprehensive-bone-marrow-report",
  "type": "collection",
  "entry": [
    {
      "fullUrl": "https://example.com/base/DiagnosticReport/comprehensive-bone-marrow-report",
      "resource": {
        "resourceType": "DiagnosticReport",
        "id": "comprehensive-bone-marrow-report",
        "text": {
          "status": "generated",
          "div": "\u003cdiv xmlns\u003d\"http://www.w3.org/1999/xhtml\"\u003e\u003ch2\u003e\u003cspan title\u003d\"Codes: \"\u003ecomprehensive bone marrow report\u003c/span\u003e \u003c/h2\u003e\u003ctable class\u003d\"grid\"\u003e\u003ctr\u003e\u003ctd\u003eSubject\u003c/td\u003e\u003ctd\u003e\u003cb\u003eEve Everywoman (OFFICIAL)\u003c/b\u003e female, DoB: 1973-05-31 ( Social Security number: 444222222)\u003c/td\u003e\u003c/tr\u003e\u003ctr\u003e\u003ctd\u003eWhen For\u003c/td\u003e\u003ctd\u003e2015-01-02T13:20:10+01:00\u003c/td\u003e\u003c/tr\u003e\u003ctr\u003e\u003ctd\u003eReported\u003c/td\u003e\u003ctd\u003e2015-01-06T13:20:10+01:00\u003c/td\u003e\u003c/tr\u003e\u003c/table\u003e\u003cp\u003e\u003cb\u003eReport Details\u003c/b\u003e\u003c/p\u003e\u003ctable class\u003d\"grid\"\u003e\u003ctr\u003e\u003ctd\u003e\u003cb\u003eCode\u003c/b\u003e\u003c/td\u003e\u003ctd\u003e\u003cb\u003eValue\u003c/b\u003e\u003c/td\u003e\u003c/tr\u003e\u003ctr\u003e\u003ctd colspan\u003d\"2\"\u003e\u003ci\u003eObservation\u003c/i\u003e\u003c/td\u003e\u003c/tr\u003e\u003ctr\u003e\u003ctd colspan\u003d\"2\"\u003e\u003ci\u003eObservation\u003c/i\u003e\u003c/td\u003e\u003c/tr\u003e\u003ctr\u003e\u003ctd colspan\u003d\"2\"\u003e\u003ci\u003eObservation\u003c/i\u003e\u003c/td\u003e\u003c/tr\u003e\u003ctr\u003e\u003ctd colspan\u003d\"2\"\u003e\u003ci\u003eObservation\u003c/i\u003e\u003c/td\u003e\u003c/tr\u003e\u003ctr\u003e\u003ctd colspan\u003d\"2\"\u003e\u003ci\u003eObservation\u003c/i\u003e\u003c/td\u003e\u003c/tr\u003e\u003ctr\u003e\u003ctd colspan\u003d\"2\"\u003e\u003ci\u003eObservation\u003c/i\u003e\u003c/td\u003e\u003c/tr\u003e\u003ctr\u003e\u003ctd colspan\u003d\"2\"\u003e\u003ci\u003eObservation\u003c/i\u003e\u003c/td\u003e\u003c/tr\u003e\u003ctr\u003e\u003ctd colspan\u003d\"2\"\u003e\u003ci\u003eObservation\u003c/i\u003e\u003c/td\u003e\u003c/tr\u003e\u003ctr\u003e\u003ctd colspan\u003d\"2\"\u003e\u003ci\u003eObservation\u003c/i\u003e\u003c/td\u003e\u003c/tr\u003e\u003ctr\u003e\u003ctd colspan\u003d\"2\"\u003e\u003ci\u003eObservation\u003c/i\u003e\u003c/td\u003e\u003c/tr\u003e\u003ctr\u003e\u003ctd colspan\u003d\"2\"\u003e\u003ci\u003eObservation\u003c/i\u003e\u003c/td\u003e\u003c/tr\u003e\u003ctr\u003e\u003ctd colspan\u003d\"2\"\u003e\u003ci\u003eObservation\u003c/i\u003e\u003c/td\u003e\u003c/tr\u003e\u003ctr\u003e\u003ctd colspan\u003d\"2\"\u003e\u003ci\u003eObservation\u003c/i\u003e\u003c/td\u003e\u003c/tr\u003e\u003c/table\u003e\u003c/div\u003e"
        },
        "extension": [
          {
            "url": "http://hl7.org/fhir/StructureDefinition/DiagnosticReport-geneticsAssessedCondition",
            "valueReference": {
              "reference": "Condition/c1"
            }
          }
        ],
        "status": "final",
        "code": {
          "text": "comprehensive bone marrow report"
        },
        "subject": {
          "reference": "Patient/genetics-example1",
          "display": "Everywoman, Eve A, MRN: 123456789"
        },
        "effectiveDateTime": "2015-01-02T13:20:10+01:00",
        "issued": "2015-01-06T13:20:10+01:00",
        "performer": [
          {
            "reference": "Practitioner/genetics-example1",
            "display": "Molecular Diagnostic Laboratory"
          }
        ],
        "specimen": [
          {
            "reference": "Specimen/genetics-example1",
            "display": "Bone marrow ID: MLD45-Z4-1234"
          }
        ],
        "result": [
          {
            "reference": "Observation/o1"
          },
          {
            "reference": "Observation/o2"
          },
          {
            "reference": "Observation/o3"
          },
          {
            "reference": "Observation/o4"
          },
          {
            "reference": "Observation/o5"
          },
          {
            "reference": "Observation/o6"
          },
          {
            "reference": "Observation/o7"
          },
          {
            "reference": "Observation/o8"
          },
          {
            "reference": "Observation/o9"
          },
          {
            "reference": "Observation/o10"
          },
          {
            "reference": "Observation/o11"
          },
          {
            "reference": "Observation/o12"
          },
          {
            "reference": "Observation/o13"
          }
        ]
      }
    },
    {
      "fullUrl": "https://example.com/base/Observation/o1",
      "resource": {
        "resourceType": "Observation",
        "id": "o1",
        "text": {
          "status": "generated",
          "div": "\u003cdiv xmlns\u003d\"http://www.w3.org/1999/xhtml\"\u003e\u003cp\u003e\u003cb\u003eGenerated Narrative\u003c/b\u003e\u003c/p\u003e\u003cdiv style\u003d\"display: inline-block; background-color: #d9e0e7; padding: 6px; margin: 4px; border: 1px solid #8da1b4; border-radius: 5px; line-height: 60%\"\u003e\u003cp style\u003d\"margin-bottom: 0px\"\u003eResource \u0026quot;o1\u0026quot; \u003c/p\u003e\u003c/div\u003e\u003cp\u003e\u003cb\u003estatus\u003c/b\u003e: final\u003c/p\u003e\u003cp\u003e\u003cb\u003ecode\u003c/b\u003e: Leukocytes [#/volume] in Blood \u003cspan style\u003d\"background: LightGoldenRodYellow; margin: 4px; border: 1px solid khaki\"\u003e (\u003ca href\u003d\"https://loinc.org/\"\u003eLOINC\u003c/a\u003e#26464-8)\u003c/span\u003e\u003c/p\u003e\u003cp\u003e\u003cb\u003evalue\u003c/b\u003e: 31.9 K/ul\u003c/p\u003e\u003c/div\u003e"
        },
        "status": "final",
        "code": {
          "coding": [
            {
              "system": "http://loinc.org",
              "code": "26464-8",
              "display": "Leukocytes [#/volume] in Blood"
            }
          ]
        },
        "valueQuantity": {
          "value": 31.9,
          "unit": "K/ul"
        }
      }
    },
    {
      "fullUrl": "https://example.com/base/Observation/o2",
      "resource": {
        "resourceType": "Observation",
        "id": "o2",
        "text": {
          "status": "generated",
          "div": "\u003cdiv xmlns\u003d\"http://www.w3.org/1999/xhtml\"\u003e\u003cp\u003e\u003cb\u003eGenerated Narrative\u003c/b\u003e\u003c/p\u003e\u003cdiv style\u003d\"display: inline-block; background-color: #d9e0e7; padding: 6px; margin: 4px; border: 1px solid #8da1b4; border-radius: 5px; line-height: 60%\"\u003e\u003cp style\u003d\"margin-bottom: 0px\"\u003eResource \u0026quot;o2\u0026quot; \u003c/p\u003e\u003c/div\u003e\u003cp\u003e\u003cb\u003estatus\u003c/b\u003e: final\u003c/p\u003e\u003cp\u003e\u003cb\u003ecode\u003c/b\u003e: Hematocrit [Volume Fraction] of Blood \u003cspan style\u003d\"background: LightGoldenRodYellow; margin: 4px; border: 1px solid khaki\"\u003e (\u003ca href\u003d\"https://loinc.org/\"\u003eLOINC\u003c/a\u003e#20570-8)\u003c/span\u003e\u003c/p\u003e\u003cp\u003e\u003cb\u003evalue\u003c/b\u003e: 27 %\u003c/p\u003e\u003c/div\u003e"
        },
        "status": "final",
        "code": {
          "coding": [
            {
              "system": "http://loinc.org",
              "code": "20570-8",
              "display": "Hematocrit [Volume Fraction] of Blood"
            }
          ]
        },
        "valueQuantity": {
          "value": 27,
          "unit": "%"
        }
      }
    },
    {
      "fullUrl": "https://example.com/base/Observation/o3",
      "resource": {
        "resourceType": "Observation",
        "id": "o3",
        "text": {
          "status": "generated",
          "div": "\u003cdiv xmlns\u003d\"http://www.w3.org/1999/xhtml\"\u003e\u003cp\u003e\u003cb\u003eGenerated Narrative\u003c/b\u003e\u003c/p\u003e\u003cdiv style\u003d\"display: inline-block; background-color: #d9e0e7; padding: 6px; margin: 4px; border: 1px solid #8da1b4; border-radius: 5px; line-height: 60%\"\u003e\u003cp style\u003d\"margin-bottom: 0px\"\u003eResource \u0026quot;o3\u0026quot; \u003c/p\u003e\u003c/div\u003e\u003cp\u003e\u003cb\u003estatus\u003c/b\u003e: final\u003c/p\u003e\u003cp\u003e\u003cb\u003ecode\u003c/b\u003e: Platelets [#/volume] in Blood \u003cspan style\u003d\"background: LightGoldenRodYellow; margin: 4px; border: 1px solid khaki\"\u003e (\u003ca href\u003d\"https://loinc.org/\"\u003eLOINC\u003c/a\u003e#26515-7)\u003c/span\u003e\u003c/p\u003e\u003cp\u003e\u003cb\u003evalue\u003c/b\u003e: 84 K/ul\u003c/p\u003e\u003c/div\u003e"
        },
        "status": "final",
        "code": {
          "coding": [
            {
              "system": "http://loinc.org",
              "code": "26515-7",
              "display": "Platelets [#/volume] in Blood"
            }
          ]
        },
        "valueQuantity": {
          "value": 84,
          "unit": "K/ul"
        }
      }
    },
    {
      "fullUrl": "https://example.com/base/Observation/o4",
      "resource": {
        "resourceType": "Observation",
        "id": "o4",
        "text": {
          "status": "generated",
          "div": "\u003cdiv xmlns\u003d\"http://www.w3.org/1999/xhtml\"\u003e\u003cp\u003e\u003cb\u003eGenerated Narrative\u003c/b\u003e\u003c/p\u003e\u003cdiv style\u003d\"display: inline-block; background-color: #d9e0e7; padding: 6px; margin: 4px; border: 1px solid #8da1b4; border-radius: 5px; line-height: 60%\"\u003e\u003cp style\u003d\"margin-bottom: 0px\"\u003eResource \u0026quot;o4\u0026quot; \u003c/p\u003e\u003c/div\u003e\u003cp\u003e\u003cb\u003estatus\u003c/b\u003e: final\u003c/p\u003e\u003cp\u003e\u003cb\u003ecode\u003c/b\u003e: NPM1 gene mutations found [Identifier] in Bone marrow by Molecular genetics method Nominal \u003cspan style\u003d\"background: LightGoldenRodYellow; margin: 4px; border: 1px solid khaki\"\u003e (\u003ca href\u003d\"https://loinc.org/\"\u003eLOINC\u003c/a\u003e#75034-9)\u003c/span\u003e\u003c/p\u003e\u003cp\u003e\u003cb\u003evalue\u003c/b\u003e: Positive \u003cspan style\u003d\"background: LightGoldenRodYellow; margin: 4px; border: 1px solid khaki\"\u003e (\u003ca href\u003d\"https://browser.ihtsdotools.org/\"\u003eSNOMED CT\u003c/a\u003e#10828004)\u003c/span\u003e\u003c/p\u003e\u003c/div\u003e"
        },
        "status": "final",
        "code": {
          "coding": [
            {
              "system": "http://loinc.org",
              "code": "75034-9",
              "display": "NPM1 gene mutations found [Identifier] in Bone marrow by Molecular genetics method Nominal"
            }
          ]
        },
        "valueCodeableConcept": {
          "coding": [
            {
              "system": "http://snomed.info/sct",
              "code": "10828004",
              "display": "Positive"
            }
          ]
        }
      }
    },
    {
      "fullUrl": "https://example.com/base/Observation/o5",
      "resource": {
        "resourceType": "Observation",
        "id": "o5",
        "text": {
          "status": "generated",
          "div": "\u003cdiv xmlns\u003d\"http://www.w3.org/1999/xhtml\"\u003e\u003cp\u003e\u003cb\u003eGenerated Narrative\u003c/b\u003e\u003c/p\u003e\u003cdiv style\u003d\"display: inline-block; background-color: #d9e0e7; padding: 6px; margin: 4px; border: 1px solid #8da1b4; border-radius: 5px; line-height: 60%\"\u003e\u003cp style\u003d\"margin-bottom: 0px\"\u003eResource \u0026quot;o5\u0026quot; \u003c/p\u003e\u003c/div\u003e\u003cp\u003e\u003cb\u003estatus\u003c/b\u003e: final\u003c/p\u003e\u003cp\u003e\u003cb\u003ecode\u003c/b\u003e: FLT3 gene mutation analysis in Bone marrow by Molecular genetics method Narrative \u003cspan style\u003d\"background: LightGoldenRodYellow; margin: 4px; border: 1px solid khaki\"\u003e (\u003ca href\u003d\"https://loinc.org/\"\u003eLOINC\u003c/a\u003e#54447-8)\u003c/span\u003e\u003c/p\u003e\u003cp\u003e\u003cb\u003evalue\u003c/b\u003e: Negative \u003cspan style\u003d\"background: LightGoldenRodYellow; margin: 4px; border: 1px solid khaki\"\u003e (\u003ca href\u003d\"https://browser.ihtsdotools.org/\"\u003eSNOMED CT\u003c/a\u003e#260385009)\u003c/span\u003e\u003c/p\u003e\u003c/div\u003e"
        },
        "status": "final",
        "code": {
          "coding": [
            {
              "system": "http://loinc.org",
              "code": "54447-8",
              "display": "FLT3 gene mutation analysis in Bone marrow by Molecular genetics method Narrative"
            }
          ]
        },
        "valueCodeableConcept": {
          "coding": [
            {
              "system": "http://snomed.info/sct",
              "code": "260385009",
              "display": "Negative"
            }
          ]
        }
      }
    },
    {
      "fullUrl": "https://example.com/base/Observation/o6",
      "resource": {
        "resourceType": "Observation",
        "id": "o6",
        "text": {
          "status": "generated",
          "div": "\u003cdiv xmlns\u003d\"http://www.w3.org/1999/xhtml\"\u003e\u003cp\u003e\u003cb\u003eGenerated Narrative\u003c/b\u003e\u003c/p\u003e\u003cdiv style\u003d\"display: inline-block; background-color: #d9e0e7; padding: 6px; margin: 4px; border: 1px solid #8da1b4; border-radius: 5px; line-height: 60%\"\u003e\u003cp style\u003d\"margin-bottom: 0px\"\u003eResource \u0026quot;o6\u0026quot; \u003c/p\u003e\u003c/div\u003e\u003cp\u003e\u003cb\u003estatus\u003c/b\u003e: final\u003c/p\u003e\u003cp\u003e\u003cb\u003ecode\u003c/b\u003e: KIT gene mutation analysis in Bone marrow by Molecular genetics method Narrative \u003cspan style\u003d\"background: LightGoldenRodYellow; margin: 4px; border: 1px solid khaki\"\u003e (\u003ca href\u003d\"https://loinc.org/\"\u003eLOINC\u003c/a\u003e#55201-8)\u003c/span\u003e\u003c/p\u003e\u003cp\u003e\u003cb\u003evalue\u003c/b\u003e: Negative \u003cspan style\u003d\"background: LightGoldenRodYellow; margin: 4px; border: 1px solid khaki\"\u003e (\u003ca href\u003d\"https://browser.ihtsdotools.org/\"\u003eSNOMED CT\u003c/a\u003e#260385009)\u003c/span\u003e\u003c/p\u003e\u003c/div\u003e"
        },
        "status": "final",
        "code": {
          "coding": [
            {
              "system": "http://loinc.org",
              "code": "55201-8",
              "display": "KIT gene mutation analysis in Bone marrow by Molecular genetics method Narrative"
            }
          ]
        },
        "valueCodeableConcept": {
          "coding": [
            {
              "system": "http://snomed.info/sct",
              "code": "260385009",
              "display": "Negative"
            }
          ]
        }
      }
    },
    {
      "fullUrl": "https://example.com/base/Observation/o7",
      "resource": {
        "resourceType": "Observation",
        "id": "o7",
        "text": {
          "status": "generated",
          "div": "\u003cdiv xmlns\u003d\"http://www.w3.org/1999/xhtml\"\u003e\u003cp\u003e\u003cb\u003eGenerated Narrative\u003c/b\u003e\u003c/p\u003e\u003cdiv style\u003d\"display: inline-block; background-color: #d9e0e7; padding: 6px; margin: 4px; border: 1px solid #8da1b4; border-radius: 5px; line-height: 60%\"\u003e\u003cp style\u003d\"margin-bottom: 0px\"\u003eResource \u0026quot;o7\u0026quot; \u003c/p\u003e\u003c/div\u003e\u003cp\u003e\u003cb\u003estatus\u003c/b\u003e: final\u003c/p\u003e\u003cp\u003e\u003cb\u003ecode\u003c/b\u003e: Myeloblasts [#/volume] in Blood \u003cspan style\u003d\"background: LightGoldenRodYellow; margin: 4px; border: 1px solid khaki\"\u003e (\u003ca href\u003d\"https://loinc.org/\"\u003eLOINC\u003c/a\u003e#30444-4)\u003c/span\u003e\u003c/p\u003e\u003cp\u003e\u003cb\u003evalue\u003c/b\u003e: Positive \u003cspan style\u003d\"background: LightGoldenRodYellow; margin: 4px; border: 1px solid khaki\"\u003e (\u003ca href\u003d\"https://browser.ihtsdotools.org/\"\u003eSNOMED CT\u003c/a\u003e#10828004)\u003c/span\u003e\u003c/p\u003e\u003c/div\u003e"
        },
        "status": "final",
        "code": {
          "coding": [
            {
              "system": "http://loinc.org",
              "code": "30444-4",
              "display": "Myeloblasts [#/volume] in Blood"
            }
          ]
        },
        "valueCodeableConcept": {
          "coding": [
            {
              "system": "http://snomed.info/sct",
              "code": "10828004",
              "display": "Positive"
            }
          ]
        }
      }
    },
    {
      "fullUrl": "https://example.com/base/Observation/o8",
      "resource": {
        "resourceType": "Observation",
        "id": "o8",
        "text": {
          "status": "generated",
          "div": "\u003cdiv xmlns\u003d\"http://www.w3.org/1999/xhtml\"\u003e\u003cp\u003e\u003cb\u003eGenerated Narrative\u003c/b\u003e\u003c/p\u003e\u003cdiv style\u003d\"display: inline-block; background-color: #d9e0e7; padding: 6px; margin: 4px; border: 1px solid #8da1b4; border-radius: 5px; line-height: 60%\"\u003e\u003cp style\u003d\"margin-bottom: 0px\"\u003eResource \u0026quot;o8\u0026quot; \u003c/p\u003e\u003c/div\u003e\u003cp\u003e\u003cb\u003estatus\u003c/b\u003e: final\u003c/p\u003e\u003cp\u003e\u003cb\u003ecode\u003c/b\u003e: CD4 Ag [Presence] in Tissue by Immune stain \u003cspan style\u003d\"background: LightGoldenRodYellow; margin: 4px; border: 1px solid khaki\"\u003e (\u003ca href\u003d\"https://loinc.org/\"\u003eLOINC\u003c/a\u003e#47016-1)\u003c/span\u003e\u003c/p\u003e\u003cp\u003e\u003cb\u003evalue\u003c/b\u003e: Positive \u003cspan style\u003d\"background: LightGoldenRodYellow; margin: 4px; border: 1px solid khaki\"\u003e (\u003ca href\u003d\"https://browser.ihtsdotools.org/\"\u003eSNOMED CT\u003c/a\u003e#10828004)\u003c/span\u003e\u003c/p\u003e\u003c/div\u003e"
        },
        "status": "final",
        "code": {
          "coding": [
            {
              "system": "http://loinc.org",
              "code": "47016-1",
              "display": "CD4 Ag [Presence] in Tissue by Immune stain"
            }
          ]
        },
        "valueCodeableConcept": {
          "coding": [
            {
              "system": "http://snomed.info/sct",
              "code": "10828004",
              "display": "Positive"
            }
          ]
        }
      }
    },
    {
      "fullUrl": "https://example.com/base/Observation/o9",
      "resource": {
        "resourceType": "Observation",
        "id": "o9",
        "text": {
          "status": "generated",
          "div": "\u003cdiv xmlns\u003d\"http://www.w3.org/1999/xhtml\"\u003e\u003cp\u003e\u003cb\u003eGenerated Narrative\u003c/b\u003e\u003c/p\u003e\u003cdiv style\u003d\"display: inline-block; background-color: #d9e0e7; padding: 6px; margin: 4px; border: 1px solid #8da1b4; border-radius: 5px; line-height: 60%\"\u003e\u003cp style\u003d\"margin-bottom: 0px\"\u003eResource \u0026quot;o9\u0026quot; \u003c/p\u003e\u003c/div\u003e\u003cp\u003e\u003cb\u003estatus\u003c/b\u003e: final\u003c/p\u003e\u003cp\u003e\u003cb\u003ecode\u003c/b\u003e: CD13 Ag [Presence] in Tissue by Immune stain \u003cspan style\u003d\"background: LightGoldenRodYellow; margin: 4px; border: 1px solid khaki\"\u003e (\u003ca href\u003d\"https://loinc.org/\"\u003eLOINC\u003c/a\u003e#49464-1)\u003c/span\u003e\u003c/p\u003e\u003cp\u003e\u003cb\u003evalue\u003c/b\u003e: Positive \u003cspan style\u003d\"background: LightGoldenRodYellow; margin: 4px; border: 1px solid khaki\"\u003e (\u003ca href\u003d\"https://browser.ihtsdotools.org/\"\u003eSNOMED CT\u003c/a\u003e#10828004)\u003c/span\u003e\u003c/p\u003e\u003c/div\u003e"
        },
        "status": "final",
        "code": {
          "coding": [
            {
              "system": "http://loinc.org",
              "code": "49464-1",
              "display": "CD13 Ag [Presence] in Tissue by Immune stain"
            }
          ]
        },
        "valueCodeableConcept": {
          "coding": [
            {
              "system": "http://snomed.info/sct",
              "code": "10828004",
              "display": "Positive"
            }
          ]
        }
      }
    },
    {
      "fullUrl": "https://example.com/base/Observation/o10",
      "resource": {
        "resourceType": "Observation",
        "id": "o10",
        "text": {
          "status": "generated",
          "div": "\u003cdiv xmlns\u003d\"http://www.w3.org/1999/xhtml\"\u003e\u003cp\u003e\u003cb\u003eGenerated Narrative\u003c/b\u003e\u003c/p\u003e\u003cdiv style\u003d\"display: inline-block; background-color: #d9e0e7; padding: 6px; margin: 4px; border: 1px solid #8da1b4; border-radius: 5px; line-height: 60%\"\u003e\u003cp style\u003d\"margin-bottom: 0px\"\u003eResource \u0026quot;o10\u0026quot; \u003c/p\u003e\u003c/div\u003e\u003cp\u003e\u003cb\u003estatus\u003c/b\u003e: final\u003c/p\u003e\u003cp\u003e\u003cb\u003ecode\u003c/b\u003e: CD2 Ag [Presence] in Tissue by Immune stain \u003cspan style\u003d\"background: LightGoldenRodYellow; margin: 4px; border: 1px solid khaki\"\u003e (\u003ca href\u003d\"https://loinc.org/\"\u003eLOINC\u003c/a\u003e#49466-6)\u003c/span\u003e\u003c/p\u003e\u003cp\u003e\u003cb\u003evalue\u003c/b\u003e: Negative \u003cspan style\u003d\"background: LightGoldenRodYellow; margin: 4px; border: 1px solid khaki\"\u003e (\u003ca href\u003d\"https://browser.ihtsdotools.org/\"\u003eSNOMED CT\u003c/a\u003e#260385009)\u003c/span\u003e\u003c/p\u003e\u003c/div\u003e"
        },
        "status": "final",
        "code": {
          "coding": [
            {
              "system": "http://loinc.org",
              "code": "49466-6",
              "display": "CD2 Ag [Presence] in Tissue by Immune stain"
            }
          ]
        },
        "valueCodeableConcept": {
          "coding": [
            {
              "system": "http://snomed.info/sct",
              "code": "260385009",
              "display": "Negative"
            }
          ]
        }
      }
    },
    {
      "fullUrl": "https://example.com/base/Observation/o11",
      "resource": {
        "resourceType": "Observation",
        "id": "o11",
        "text": {
          "status": "generated",
          "div": "\u003cdiv xmlns\u003d\"http://www.w3.org/1999/xhtml\"\u003e\u003cp\u003e\u003cb\u003eGenerated Narrative\u003c/b\u003e\u003c/p\u003e\u003cdiv style\u003d\"display: inline-block; background-color: #d9e0e7; padding: 6px; margin: 4px; border: 1px solid #8da1b4; border-radius: 5px; line-height: 60%\"\u003e\u003cp style\u003d\"margin-bottom: 0px\"\u003eResource \u0026quot;o11\u0026quot; \u003c/p\u003e\u003c/div\u003e\u003cp\u003e\u003cb\u003estatus\u003c/b\u003e: final\u003c/p\u003e\u003cp\u003e\u003cb\u003ecode\u003c/b\u003e: Karyotype [Identifier] in Bone marrow Nominal \u003cspan style\u003d\"background: LightGoldenRodYellow; margin: 4px; border: 1px solid khaki\"\u003e (\u003ca href\u003d\"https://loinc.org/\"\u003eLOINC\u003c/a\u003e#33893-9)\u003c/span\u003e\u003c/p\u003e\u003cp\u003e\u003cb\u003evalue\u003c/b\u003e: 46,XX[20] \u003cspan style\u003d\"background: LightGoldenRodYellow; margin: 4px; border: 1px solid khaki\"\u003e ()\u003c/span\u003e\u003c/p\u003e\u003c/div\u003e"
        },
        "status": "final",
        "code": {
          "coding": [
            {
              "system": "http://loinc.org",
              "code": "33893-9",
              "display": "Karyotype [Identifier] in Bone marrow Nominal"
            }
          ]
        },
        "valueCodeableConcept": {
          "text": "46,XX[20]"
        }
      }
    },
    {
      "fullUrl": "https://example.com/base/Observation/o12",
      "resource": {
        "resourceType": "Observation",
        "id": "o12",
        "text": {
          "status": "generated",
          "div": "\u003cdiv xmlns\u003d\"http://www.w3.org/1999/xhtml\"\u003e\u003cp\u003e\u003cb\u003eGenerated Narrative\u003c/b\u003e\u003c/p\u003e\u003cdiv style\u003d\"display: inline-block; background-color: #d9e0e7; padding: 6px; margin: 4px; border: 1px solid #8da1b4; border-radius: 5px; line-height: 60%\"\u003e\u003cp style\u003d\"margin-bottom: 0px\"\u003eResource \u0026quot;o12\u0026quot; \u003c/p\u003e\u003c/div\u003e\u003cp\u003e\u003cb\u003estatus\u003c/b\u003e: final\u003c/p\u003e\u003cp\u003e\u003cb\u003ecode\u003c/b\u003e: MDS-associated genetic abnormalities \u003cspan style\u003d\"background: LightGoldenRodYellow; margin: 4px; border: 1px solid khaki\"\u003e ()\u003c/span\u003e\u003c/p\u003e\u003cp\u003e\u003cb\u003evalue\u003c/b\u003e: Negative \u003cspan style\u003d\"background: LightGoldenRodYellow; margin: 4px; border: 1px solid khaki\"\u003e (\u003ca href\u003d\"https://browser.ihtsdotools.org/\"\u003eSNOMED CT\u003c/a\u003e#260385009)\u003c/span\u003e\u003c/p\u003e\u003c/div\u003e"
        },
        "status": "final",
        "code": {
          "text": "MDS-associated genetic abnormalities"
        },
        "valueCodeableConcept": {
          "coding": [
            {
              "system": "http://snomed.info/sct",
              "code": "260385009",
              "display": "Negative"
            }
          ]
        }
      }
    },
    {
      "fullUrl": "https://example.com/base/Observation/o13",
      "resource": {
        "resourceType": "Observation",
        "id": "o13",
        "text": {
          "status": "generated",
          "div": "\u003cdiv xmlns\u003d\"http://www.w3.org/1999/xhtml\"\u003e\u003cp\u003e\u003cb\u003eGenerated Narrative\u003c/b\u003e\u003c/p\u003e\u003cdiv style\u003d\"display: inline-block; background-color: #d9e0e7; padding: 6px; margin: 4px; border: 1px solid #8da1b4; border-radius: 5px; line-height: 60%\"\u003e\u003cp style\u003d\"margin-bottom: 0px\"\u003eResource \u0026quot;o13\u0026quot; \u003c/p\u003e\u003c/div\u003e\u003cp\u003e\u003cb\u003estatus\u003c/b\u003e: final\u003c/p\u003e\u003cp\u003e\u003cb\u003ecode\u003c/b\u003e: AML-associated genetic abnormalities \u003cspan style\u003d\"background: LightGoldenRodYellow; margin: 4px; border: 1px solid khaki\"\u003e ()\u003c/span\u003e\u003c/p\u003e\u003cp\u003e\u003cb\u003evalue\u003c/b\u003e: Negative \u003cspan style\u003d\"background: LightGoldenRodYellow; margin: 4px; border: 1px solid khaki\"\u003e (\u003ca href\u003d\"https://browser.ihtsdotools.org/\"\u003eSNOMED CT\u003c/a\u003e#260385009)\u003c/span\u003e\u003c/p\u003e\u003c/div\u003e"
        },
        "status": "final",
        "code": {
          "text": "AML-associated genetic abnormalities"
        },
        "valueCodeableConcept": {
          "coding": [
            {
              "system": "http://snomed.info/sct",
              "code": "260385009",
              "display": "Negative"
            }
          ]
        }
      }
    }
  ],
  "meta": {
    "tag": [
      {
        "system": "http://terminology.hl7.org/CodeSystem/v3-ActReason",
        "code": "HTEST",
        "display": "test health data"
      }
    ]
  }
}