{
  "resourceType": "Bundle",
  "id": "155141d4-7601-46f7-a82b-b8443bcf9883",
  "type": "history",
  "timestamp": "2020-04-17T10:24:13.1882432-05:00",
  "entry": [
    {
      "fullUrl": "urn:uuid:dd431176-7bcf-455e-8a0c-50cb15d6263f",
      "resource": {
        "resourceType": "SubscriptionStatus",
        "id": "dd431176-7bcf-455e-8a0c-50cb15d6263f",
        "text": {
          "status": "generated",
          "div": "\u003cdiv xmlns\u003d\"http://www.w3.org/1999/xhtml\"\u003e\u003cp\u003e\u003cb\u003eGenerated Narrative\u003c/b\u003e\u003c/p\u003e\u003cdiv style\u003d\"display: inline-block; background-color: #d9e0e7; padding: 6px; margin: 4px; border: 1px solid #8da1b4; border-radius: 5px; line-height: 60%\"\u003e\u003cp style\u003d\"margin-bottom: 0px\"\u003eResource \u0026quot;dd431176-7bcf-455e-8a0c-50cb15d6263f\u0026quot; \u003c/p\u003e\u003c/div\u003e\u003cp\u003e\u003cb\u003estatus\u003c/b\u003e: active\u003c/p\u003e\u003cp\u003e\u003cb\u003etype\u003c/b\u003e: query-event\u003c/p\u003e\u003cp\u003e\u003cb\u003eeventsSinceSubscriptionStart\u003c/b\u003e: 2\u003c/p\u003e\u003cblockquote\u003e\u003cp\u003e\u003cb\u003enotificationEvent\u003c/b\u003e\u003c/p\u003e\u003cp\u003e\u003cb\u003eeventNumber\u003c/b\u003e: 1\u003c/p\u003e\u003cp\u003e\u003cb\u003efocus\u003c/b\u003e: \u003ca href\u003d\"todo.html\"\u003ehttp://example.org/FHIR/R4B/Encounter/1\u003c/a\u003e\u003c/p\u003e\u003c/blockquote\u003e\u003cblockquote\u003e\u003cp\u003e\u003cb\u003enotificationEvent\u003c/b\u003e\u003c/p\u003e\u003cp\u003e\u003cb\u003eeventNumber\u003c/b\u003e: 2\u003c/p\u003e\u003cp\u003e\u003cb\u003efocus\u003c/b\u003e: \u003ca href\u003d\"todo.html\"\u003ehttp://example.org/FHIR/R4B/Encounter/2\u003c/a\u003e\u003c/p\u003e\u003c/blockquote\u003e\u003cp\u003e\u003cb\u003esubscription\u003c/b\u003e: \u003ca href\u003d\"todo.html\"\u003ehttp://example.org/FHIR/R4B/Subscription/123\u003c/a\u003e\u003c/p\u003e\u003cp\u003e\u003cb\u003etopic\u003c/b\u003e: \u003ca href\u003d\"http://example.org/FHIR/R4B/SubscriptionTopic/admission\"\u003ehttp://example.org/FHIR/R4B/SubscriptionTopic/admission\u003c/a\u003e\u003c/p\u003e\u003c/div\u003e"
        },
        "status": "active",
        "type": "query-event",
        "eventsSinceSubscriptionStart": "2",
        "notificationEvent": [
          {
            "eventNumber": "1",
            "focus": {
              "reference": "http://example.org/FHIR/R4B/Encounter/1"
            }
          },
          {
            "eventNumber": "2",
            "focus": {
              "reference": "http://example.org/FHIR/R4B/Encounter/2"
            }
          }
        ],
        "subscription": {
          "reference": "http://example.org/FHIR/R4B/Subscription/123"
        },
        "topic": "http://example.org/FHIR/R4B/SubscriptionTopic/admission"
      },
      "request": {
        "method": "GET",
        "url": "Subscription/123/$events"
      },
      "response": {
        "status": "200"
      }
    },
    {
      "fullUrl": "http://example.org/FHIR/R4B/Encounter/1",
      "request": {
        "method": "PUT",
        "url": "Encounter/1"
      },
      "response": {
        "status": "201"
      }
    },
    {
      "fullUrl": "http://example.org/FHIR/R4B/Encounter/2",
      "request": {
        "method": "PUT",
        "url": "Encounter/2"
      },
      "response": {
        "status": "201"
      }
    }
  ],
  "meta": {
    "tag": [
      {
        "system": "http://terminology.hl7.org/CodeSystem/v3-ActReason",
        "code": "HTEST",
        "display": "test health data"
      }
    ]
  }
}